Folder: WPEM/Papers/SAC105/output_xrd

Note: Papers/README.md
# WPEM
A X-ray Diffraction Refinement Software

Here are some refinement applications of WPEM in published papers

File: Cu6Sn5_Extinction_peak.csv
H,K,L,Distance,2theta/TOF,Mult
2,-1,-2,3.4668,25.6968,4
1,-2,-1,3.3076,26.9564,4
3,0,1,3.2459,27.4788,2
3,0,-2,3.1522,28.3123,2
1,0,3,2.9849,29.9353,2
-1,2,2,2.8839,31.0095,4
1,2,2,2.7546,32.5045,4
3,0,-3,2.6275,34.1238,2
-4,1,1,2.5617,35.0282,4
4,-1,0,2.5536,35.143,4
-1,0,4,2.4541,36.6173,2
3,-2,1,2.4238,37.0916,4
-4,1,-1,2.3871,37.6832,4
0,3,-1,2.3569,38.1846,4
0,-1,4,2.3062,39.0577,4
-3,0,-3,2.254,40.0004,4
-2,3,0,2.219,40.6589,4
2,-3,-1,2.1933,41.1568,4
-3,2,-2,2.179,41.4393,4
4,-1,-3,2.1624,41.7722,4
2,-3,1,2.1347,42.3401,4
5,0,-2,2.1147,42.7601,2
-5,0,-1,2.0619,43.9112,2
-2,-1,-4,2.0213,44.8406,4
1,0,-5,1.9675,46.1365,2
-1,2,-4,1.9445,46.7143,4
3,2,3,1.9169,47.4278,4
3,0,4,1.8914,48.1073,2
5,0,2,1.8852,48.2756,2
0,1,5,1.8792,48.4396,4
-3,-2,4,1.8715,48.6518,4
2,-1,-5,1.8636,48.8715,4
5,2,-2,1.829,49.8584,4
4,3,0,1.8137,50.3081,4
-5,2,-1,1.7945,50.8846,4
2,-3,3,1.7801,51.326,4
-6,1,0,1.7636,51.8416,4
1,4,1,1.7592,51.981,4
4,-3,1,1.7511,52.2395,4
-1,2,5,1.7313,52.883,4
0,-3,4,1.7184,53.3112,4
-1,-4,2,1.6996,53.9484,4
2,-3,-4,1.6923,54.2001,4
-3,-2,-4,1.6787,54.6757,4
-1,4,-2,1.6719,54.9168,4
1,2,5,1.6609,55.3115,4
-6,1,3,1.6559,55.4929,4
4,3,2,1.6453,55.8816,4
3,-2,-5,1.6395,56.0967,4
3,-4,-1,1.6247,56.6536,4
2,3,4,1.5903,57.994,4
5,2,-4,1.5872,58.1181,4
0,1,6,1.5821,58.3234,4
-7,0,1,1.5765,58.5507,2
-1,0,-6,1.5686,58.8745,2
1,-4,3,1.5551,59.4367,4
6,-1,-4,1.5405,60.0576,4
4,-3,-4,1.5304,60.4952,4
3,-4,2,1.5135,61.2427,4
2,-3,-5,1.51,61.4,4
-3,-4,3,1.4972,61.9826,4
1,-2,-6,1.4956,62.0562,4
4,-1,-6,1.4669,63.4097,4
1,4,-4,1.4629,63.6034,4
6,-1,3,1.4607,63.7104,4
-6,3,0,1.4553,63.9748,4
-5,-2,5,1.4469,64.3908,4
6,3,-2,1.4437,64.5508,4
-1,-2,-6,1.4408,64.6965,4
-7,-2,2,1.4298,65.2557,4
-7,0,-2,1.4217,65.6742,2
3,-4,3,1.4169,65.9249,4
6,-3,1,1.4141,66.0721,4
-5,0,6,1.4083,66.3793,2
-1,0,7,1.4053,66.5394,2
3,0,6,1.4025,66.6895,2
4,-3,-5,1.3995,66.8512,4
5,2,4,1.3969,66.9921,4
-6,-3,3,1.393,67.2045,4
4,-3,4,1.3876,67.5011,4
7,-2,-3,1.3843,67.6837,4
-2,-1,7,1.3734,68.2946,4
2,-5,-2,1.3671,68.6531,4
0,1,7,1.3646,68.7965,4
-1,0,-7,1.3524,69.5058,2
0,-3,-6,1.3482,69.7537,4
8,-1,0,1.3399,70.2492,4
-1,4,5,1.3368,70.4362,4
5,4,-3,1.3324,70.7036,4
-7,0,-3,1.327,71.0347,2
6,3,-4,1.3222,71.3319,4
-7,2,4,1.318,71.5942,4
3,4,4,1.3122,71.9599,4
-2,5,3,1.3106,72.0615,4
-8,-1,3,1.3099,72.106,4
-1,-4,-5,1.3036,72.5097,4
-3,4,5,1.2932,73.187,4
4,-1,6,1.2874,73.5708,4
-4,5,0,1.2854,73.7041,4
-2,-1,-7,1.2793,74.1142,4
-2,5,-3,1.2732,74.5294,4
6,-3,3,1.2707,74.701,4
5,-4,-4,1.267,74.9566,4
4,-3,5,1.2638,75.1792,4
4,5,1,1.2625,75.2701,4
0,-5,4,1.2501,76.1492,4
-8,-1,-2,1.2447,76.5391,4
5,-4,3,1.2404,76.8529,4
7,-2,-5,1.2398,76.8969,4
-7,0,-4,1.229,77.6986,2
4,5,-3,1.2256,77.9549,4
-7,0,6,1.2204,78.3505,2
1,-4,-6,1.2189,78.4655,4
2,-3,-7,1.212,78.9992,4
-2,1,8,1.21,79.1554,4
-3,-4,-5,1.2086,79.2652,4
0,3,7,1.2059,79.4778,4
8,-3,-1,1.1995,79.9871,4
-2,-5,-4,1.1981,80.0994,4
1,-6,1,1.1955,80.3091,4
3,-4,-6,1.1904,80.7239,4
8,3,0,1.1888,80.8551,4
-1,0,-8,1.1882,80.9044,2
-7,4,0,1.1841,81.2431,4
-9,0,-1,1.1804,81.5516,2
-8,-1,-3,1.1773,81.8121,4
4,-5,-4,1.1718,82.2789,4
-8,3,3,1.1677,82.6308,4
4,5,3,1.1664,82.7431,4
4,-1,-8,1.1643,82.9253,4
-2,-5,5,1.1626,83.0734,4
8,-3,1,1.1615,83.1696,4
9,0,-4,1.1576,83.5127,2
7,4,-3,1.1564,83.6189,4
4,-1,7,1.1529,83.9304,4
-3,6,0,1.152,84.0109,4
3,-6,-1,1.1506,84.1365,4
3,2,-8,1.1482,84.3529,4
-6,-5,1,1.1421,84.9086,4
3,-6,1,1.1376,85.324,4
9,2,-3,1.137,85.3798,4
7,0,5,1.1341,85.6504,2
-6,5,2,1.1315,85.8946,4
-8,3,4,1.1291,86.1216,4
-1,-6,-3,1.125,86.5125,4
7,-4,2,1.1208,86.9172,4
8,-1,-6,1.1187,87.1212,4
7,4,-4,1.1169,87.2969,4
6,1,6,1.1137,87.6114,4
-3,4,-6,1.1114,87.8391,4
3,6,2,1.109,88.0781,4
-6,5,3,1.1066,88.3187,4
4,5,4,1.1039,88.5912,4
3,0,8,1.1031,88.6723,2
-6,-3,-5,1.1022,88.7638,4
-2,-3,8,1.0952,89.4828,4
-10,1,1,1.0902,90.0048,4
-10,-1,2,1.0884,90.1945,4
-5,-2,8,1.0867,90.3745,4
-6,-5,-2,1.0844,90.6194,4
0,-5,-6,1.0838,90.6835,4
9,0,3,1.0819,90.8874,2
2,1,-9,1.0802,91.0707,4
7,2,-7,1.0758,91.5492,4
-10,-1,3,1.0732,91.8348,4
8,3,3,1.0708,92.1003,4
3,-6,3,1.0692,92.2784,4
-7,-4,5,1.0681,92.4012,4
-3,6,4,1.0612,93.181,4
9,-2,-5,1.0595,93.3755,4
3,2,8,1.0558,93.8023,4
-5,-6,2,1.0532,94.1051,4
-5,-2,-7,1.0513,94.3278,4
-4,-1,9,1.0506,94.4102,4
10,-1,-4,1.0464,94.9081,4
-1,-2,9,1.0458,94.9798,4
2,-5,6,1.0427,95.3521,4
0,7,0,1.0411,95.5457,2
-7,0,8,1.0386,95.85,2
-5,-4,7,1.0378,95.9479,4
0,7,1,1.0352,96.2678,4
-5,0,9,1.0332,96.5156,2
5,-6,-3,1.0315,96.7275,4
6,-5,-5,1.0254,97.4972,4
3,-4,7,1.0229,97.817,4
-6,-3,-6,1.0223,97.8942,4
-5,-6,-2,1.021,98.0619,4
-2,-7,1,1.0201,98.1784,4
0,7,2,1.018,98.4515,4
1,2,9,1.0173,98.543,4
-8,3,-4,1.0157,98.7529,4
9,-4,-2,1.0139,98.9903,4

File: Ti2Sn3_Extinction_peak.csv
H,K,L,Distance,2theta/TOF,Mult
0,5,1,3.4716,25.6607,4
0,1,-2,3.4608,25.7421,4
1,4,1,3.3598,26.5299,4
1,5,0,3.3164,26.8835,4
0,3,-2,3.1074,28.7292,4
-1,0,2,3.0264,29.5154,4
2,1,0,2.9452,30.3484,4
1,6,0,2.9047,30.782,4
1,2,2,2.8962,30.8746,4
0,7,0,2.852,31.3653,2
2,0,1,2.7418,32.6604,4
-2,3,0,2.718,32.9545,4
-2,-1,-1,2.7163,32.9758,4
1,-6,1,2.6844,33.379,4
0,7,1,2.6426,33.9229,4
0,5,2,2.6379,33.9851,4
-1,4,-2,2.5878,34.6637,8
-1,-7,0,2.5722,34.8806,4
2,-3,1,2.535,35.4093,8
2,-5,0,2.387,37.6848,4
0,0,3,2.3427,38.4251,2
0,-1,3,2.3267,38.6998,4
1,-8,0,2.3016,39.1389,4
-2,-5,-1,2.2602,39.886,8
-2,1,-2,2.2572,39.9412,4
1,-6,2,2.2388,40.2837,8
0,-9,0,2.2182,40.6742,2
0,7,2,2.2144,40.7471,4
0,-3,3,2.2097,40.8376,4
-1,8,-1,2.1873,41.2748,4
1,0,3,2.18,41.4194,4
-2,3,2,2.1499,42.0265,8
-1,2,-3,2.1298,42.4422,8
0,-9,-1,2.1153,42.7474,4
-1,-9,0,2.0787,43.5381,4
2,-7,0,2.0597,43.9606,4
0,-5,3,2.0205,44.8593,4
1,-4,-3,1.9978,45.3973,8
3,0,0,1.9851,45.7041,2
-2,-7,1,1.9765,45.9144,8
3,1,0,1.9754,45.9414,4
2,-5,-2,1.9745,45.9635,8
3,2,0,1.947,46.6508,4
1,-8,2,1.9253,47.2083,8
3,0,-1,1.9104,47.5992,4
-3,3,0,1.9023,47.8144,4
1,10,0,1.8928,48.0695,4
-3,-2,1,1.8763,48.5193,8
0,9,2,1.8757,48.5358,4
-3,4,0,1.8446,49.4084,4
2,0,3,1.8412,49.5057,4
-2,1,-3,1.8334,49.7306,8
1,10,-1,1.8277,49.8963,8
-1,-6,-3,1.8235,50.0191,8
0,-11,0,1.8149,50.2726,2
0,7,-3,1.8102,50.4122,4
3,-4,1,1.7842,51.1995,8
2,-9,0,1.7789,51.3631,4
-3,-5,0,1.7776,51.4034,4
2,-7,2,1.7769,51.4251,4
2,3,-3,1.7745,51.4998,8
0,-11,1,1.7572,52.0446,4
0,-1,4,1.7502,52.2684,4
1,-11,0,1.736,52.7288,4
3,0,-2,1.7284,52.9786,4
-2,9,-1,1.7245,53.1078,8
-3,6,0,1.7048,53.7706,4
-3,2,-2,1.7031,53.8286,8
0,-3,4,1.6988,53.9758,4
-1,0,4,1.6852,54.4473,4
-2,5,3,1.6719,54.9168,8
-1,-10,-2,1.6664,55.1134,8
-1,2,-4,1.6617,55.2826,8
3,-6,-1,1.6567,55.4638,8
1,8,3,1.6418,56.0112,8
-3,-4,2,1.6332,56.3323,8
-3,7,0,1.6293,56.4793,4
0,11,2,1.6125,57.1215,4
0,-9,-3,1.6107,57.1912,4
0,-5,4,1.6082,57.2883,4
-1,12,0,1.6023,57.5189,4
-1,4,-4,1.5966,57.7436,8
2,9,2,1.5871,58.1221,4
1,12,1,1.5622,59.1396,4
-3,8,0,1.5535,59.504,4
-2,-11,0,1.5497,59.6647,4
2,7,-3,1.5468,59.788,8
3,6,2,1.5338,60.3471,8
3,8,-1,1.5169,61.0908,8
3,0,-3,1.5145,61.198,4
-2,-11,1,1.5133,61.2517,8
2,-1,-4,1.5089,61.4496,8
1,6,-4,1.5033,61.7035,8
-3,-2,3,1.4974,61.9734,8
0,-7,4,1.4959,62.0424,4
4,-1,0,1.4847,62.563,4
-3,-9,0,1.4792,62.822,4
2,3,4,1.4755,62.9976,8
-1,-10,-3,1.4723,63.1503,8
-1,12,-2,1.4579,63.8472,8
4,0,-1,1.4565,63.9158,4
4,3,0,1.4529,64.0931,4
-4,1,-1,1.4527,64.1029,8
3,-4,3,1.4492,64.2763,4
0,-11,-3,1.4347,65.0053,4
4,-3,1,1.4228,65.617,8
3,-8,2,1.4209,65.7158,8
-2,-11,2,1.4179,65.8725,8
2,-9,3,1.4167,65.9354,8
-2,-5,4,1.415,66.0247,8
3,10,0,1.4076,66.4165,4
0,0,5,1.4056,66.5233,2
0,1,5,1.4021,66.711,4
1,8,-4,1.3965,67.0138,8
-4,5,0,1.395,67.0954,4
3,10,-1,1.3802,67.9121,8
3,-6,3,1.3784,68.0129,4
0,-9,-4,1.3773,68.0746,4
0,3,-5,1.3752,68.1929,4
4,5,1,1.3683,68.5845,8
1,0,-5,1.368,68.6017,4
-4,1,2,1.3677,68.6188,8
-1,2,5,1.3553,69.3358,8
4,3,-2,1.3427,70.0812,8
-3,-11,0,1.3394,70.2793,4
2,-7,4,1.3367,70.4423,8
0,5,5,1.3258,71.1088,4
1,12,3,1.3225,71.3133,8
4,-7,0,1.3198,71.4815,4
-1,4,5,1.3193,71.5128,8
3,0,-4,1.3157,71.7387,4
3,10,2,1.3067,72.3104,8
-3,-2,-4,1.3044,72.4581,8
-4,7,1,1.2971,72.9314,8
4,-5,2,1.2966,72.964,8
3,8,-3,1.2947,73.0884,8
2,-11,3,1.2925,73.2331,8
1,10,-4,1.2877,73.5508,8
3,12,0,1.2751,74.3995,4
3,4,4,1.2722,74.5979,4
-2,0,5,1.2711,74.6735,4
2,-1,5,1.2685,74.8527,8
-1,-6,5,1.2652,75.0817,8
0,11,-4,1.2623,75.2841,4
0,-7,5,1.2608,75.3893,4
4,0,3,1.2565,75.6926,4
-3,12,1,1.2546,75.8275,8
4,-1,3,1.2541,75.8631,8
2,9,4,1.25,76.1563,8
2,-3,-5,1.2485,76.2642,8
4,-9,0,1.2362,77.1621,4
-4,-7,-2,1.2355,77.2139,8
4,-3,-3,1.2347,77.2732,4
-3,6,-4,1.2235,78.1141,8
-4,-9,1,1.2175,78.5731,8
-2,-5,5,1.2112,79.0616,8
-3,-10,-3,1.2066,79.4226,4
-1,8,5,1.1996,79.9791,8
4,5,-3,1.1986,80.0593,8
-5,0,0,1.1911,80.6667,2
-5,1,0,1.189,80.8387,4
0,-9,-5,1.1873,80.9785,4
-1,12,4,1.1839,81.2597,8
5,2,0,1.1827,81.3595,4
-5,0,1,1.1743,82.0659,4
5,3,0,1.1724,82.2277,4
0,1,6,1.1693,82.4931,4
-5,2,-1,1.1663,82.7518,8
-4,9,2,1.1661,82.7691,8
-3,-8,-4,1.1638,82.9688,8
2,-11,4,1.1622,83.1084,8
2,7,-5,1.161,83.2134,8
-5,4,0,1.1585,83.4332,4
0,-3,-6,1.1536,83.8679,4
4,11,0,1.1511,84.0916,4
-4,7,3,1.1499,84.1995,8
-1,0,-6,1.1493,84.2536,4
-3,0,-5,1.1471,84.4525,4
5,4,1,1.1431,84.817,8
-1,-2,-6,1.1417,84.9454,8
5,5,0,1.1414,84.973,1
3,2,5,1.1396,85.1388,8
4,1,4,1.134,85.6597,4
1,-10,5,1.1285,86.1785,8
5,0,-2,1.128,86.226,4
0,-5,-6,1.1239,86.618,4
5,6,0,1.1214,86.8591,4
5,2,-2,1.1209,86.9075,8
-1,-4,-6,1.12,86.9948,8
3,12,3,1.1199,87.0045,4
4,-3,-4,1.1197,87.0239,8
-3,4,5,1.118,87.1894,8
0,11,5,1.1113,87.849,4
-5,-6,-1,1.1074,88.2384,8
2,-9,5,1.1028,88.7028,8
5,4,2,1.1003,88.9576,8
-5,-7,0,1.0991,89.0805,4
3,10,4,1.0985,89.1421,8
4,-11,-2,1.0939,89.6178,8
4,-9,-3,1.0933,89.6803,8
4,5,4,1.0925,89.7638,4
-2,1,6,1.0884,90.1945,8
-1,6,6,1.0863,90.417,4
-3,6,5,1.0845,90.6087,8
0,-7,-6,1.0835,90.7156,4
2,-3,-6,1.0757,91.5602,8
-5,-6,-2,1.0683,92.3789,8
5,-8,1,1.0625,93.0329,8
5,0,3,1.0617,93.1239,4
-1,12,-5,1.0566,93.7096,8
-5,-2,3,1.0558,93.8023,8
4,7,-4,1.0552,93.872,8
2,-5,6,1.0515,94.3043,8
-5,-9,0,1.0493,94.5636,4
1,-8,-6,1.0439,95.2076,8
3,-8,5,1.0423,95.4004,8
2,11,5,1.0411,95.5457,8
5,-4,3,1.0385,95.8622,8
-4,11,3,1.0331,96.528,8
-3,12,4,1.0319,96.6775,8
5,8,-2,1.0279,97.1799,8
5,-10,0,1.0228,97.8299,4
4,0,5,1.022,97.9328,4
4,1,5,1.0207,98.1007,8
2,7,-6,1.0182,98.4254,8
-5,-10,-1,1.0122,99.2159,8
-5,-6,-3,1.0115,99.3091,8
-4,9,4,1.011,99.3759,8
4,-3,-5,1.0102,99.4829,8
3,0,-6,1.0088,99.6709,4