Folder: WPEM/Papers/Nano energy/WPEM-250/output_xrd

Note: Papers/Nano energy/README.md
``` javascript
Nano Energy
2023-07 | Journal article
DOI: 10.1016/j.nanoen.2023.108727

Yin Qin, Bin Cao, Xiao-Ye Zhou, Zhuorui Xiao, Hanxiang Zhou, Zhenyi Zhao, Yibo Weng, Jianshuai Lv, Yang Liu, Yan-Bing He, Feiyu Kang, Kaikai Li, Tong-Yi Zhang,
Orthorhombic (Ru, Mn)2O3: a superior electrocatalyst for acidic oxygen evolution reaction,
Nano Energy,
2023,
108727,
ISSN 2211-2855,
https://doi.org/10.1016/j.nanoen.2023.108727.
```

File: Mn2O3_Extinction_peak.csv
H,K,L,Distance,2theta/TOF,Mult
1,1,1,5.4328,16.3024,8
0,1,2,4.2082,21.0945,24
0,2,2,3.3269,26.775,12
0,0,3,3.1366,28.4326,6
1,1,3,2.8372,31.507,24
0,2,3,2.6098,34.3337,24
0,1,4,2.2822,39.4521,24
1,3,3,2.1588,41.8097,24
1,2,4,2.0534,44.065,48
0,0,5,1.882,48.3213,6
1,1,5,1.8109,50.3477,24
0,2,5,1.7473,52.3162,24
1,4,4,1.638,56.1032,24
1,3,5,1.5905,57.9347,48
0,1,6,1.5469,59.7304,24
0,4,5,1.4695,63.2274,24
3,3,5,1.435,64.931,24
0,3,6,1.4027,66.6178,24
0,0,7,1.3442,69.9267,6
1,1,7,1.3176,71.5524,24
0,2,7,1.2925,73.1642,24
2,2,7,1.2463,76.3502,24
1,3,7,1.225,77.9253,48
0,5,6,1.2048,79.4877,24
0,1,8,1.1671,82.6011,24
3,3,7,1.1496,84.1428,24
1,2,8,1.1328,85.6863,48
0,6,6,1.1089,87.9985,12
0,3,8,1.1013,88.7647,24