Folder: WPEM/Papers/SnAgCu/output_xrd

Note: Papers/README.md
# WPEM
A X-ray Diffraction Refinement Software

Here are some refinement applications of WPEM in published papers

File: Ag3Sn_Extinction_peak.csv
H,K,L,Distance,2theta/TOF,Mult
2,1,0,2.5312,35.4642,4
1,-2,0,2.2187,40.6646,4
3,0,0,1.9893,45.6022,2
0,3,0,1.5934,57.8705,2
3,2,0,1.529,60.5564,4
4,-1,0,1.4242,65.5444,4
-2,3,0,1.4055,66.5287,4
-5,0,0,1.1936,80.4631,2
-1,4,0,1.1717,82.2874,4
4,3,0,1.089,90.1311,4
5,2,0,1.0678,92.4348,4
-3,4,0,1.0244,97.6248,4

File: Ag3SnHKL.csv
H,K,L,Distance,2theta/TOF,Mult
0,-1,-1,3.5143,25.3437,4
-1,-1,1,3.0282,29.4974,1
2,0,0,2.984,29.9445,2
0,0,2,2.5921,34.6044,2
2,0,1,2.5861,34.6872,4
0,2,0,2.3901,37.6341,2
-1,0,2,2.3775,37.8411,4
0,1,-2,2.2786,39.5504,4
-2,-1,-1,2.2746,39.6228,4
0,2,1,2.1705,41.6091,4
-1,1,-2,2.1287,42.4652,8
1,-2,-1,2.0398,44.4122,8
-2,0,-2,1.9569,46.401,4
2,2,0,1.8654,48.8212,1
3,0,-1,1.8572,49.051,4
3,1,0,1.8366,49.6381,4
-2,1,-2,1.811,50.3884,4
0,2,2,1.7571,52.0478,4
-2,-2,1,1.7552,52.1083,1
-3,1,-1,1.7312,52.8863,8
0,0,3,1.7281,52.9886,2
1,2,2,1.6856,54.4333,4
1,0,3,1.6599,55.3477,4
0,-1,3,1.6251,56.6384,4
3,0,-2,1.5781,58.4856,4
1,1,-3,1.568,58.8993,1
1,3,0,1.5394,60.1049,4
0,3,-1,1.523,60.8201,4
2,-2,2,1.5141,61.2159,4
3,1,-2,1.4985,61.9229,8
2,0,3,1.4954,62.0655,4
-4,0,0,1.492,62.2226,2
-1,-3,-1,1.4757,62.9881,4
-3,-2,1,1.4665,63.429,8
4,0,-1,1.4338,65.0512,4
-2,1,-3,1.4272,65.3894,8
0,2,3,1.4004,66.8026,4
-4,1,-1,1.3733,68.3002,8
-1,2,-3,1.3633,68.8714,8
0,3,-2,1.3574,69.2132,4
2,-3,1,1.3565,69.2657,8
1,3,-2,1.3236,71.2449,8
-3,2,-2,1.3169,71.6632,8
3,0,-3,1.3046,72.4453,4
0,0,-4,1.296,73.0033,2
-4,0,-2,1.293,73.2001,4
-2,2,-3,1.2677,74.9081,8
-1,0,4,1.2665,74.9913,4
4,2,0,1.2656,75.0538,4
3,-1,3,1.2585,75.5512,4
0,-1,4,1.2509,76.0918,4
-4,1,2,1.2482,76.2859,8
-3,3,0,1.2436,76.6191,4
-2,3,2,1.2356,77.2065,8
-4,-2,-1,1.2295,77.6611,8
-1,-1,-4,1.2243,78.0534,1
-3,-3,1,1.2093,79.2102,1
0,4,0,1.195,80.3495,2
2,0,-4,1.1887,80.8633,4
0,-3,3,1.1714,82.3131,4
0,-4,1,1.1645,82.9079,4
-5,0,1,1.1631,83.0298,4
-5,1,0,1.158,83.4773,4
2,-1,-4,1.1536,83.8679,8
-1,3,3,1.1494,84.2446,4
-3,-2,3,1.1451,84.6343,8
1,4,1,1.1429,84.8353,4
0,-2,4,1.1393,85.1666,4
-4,-2,-2,1.1373,85.3519,4
5,-1,-1,1.1301,86.0269,4
4,0,3,1.1293,86.1026,4
-3,-3,2,1.1212,86.8784,1
-1,2,-4,1.1191,87.0822,8
-2,4,0,1.1093,88.0482,4
4,-1,3,1.099,89.0908,8
2,3,-3,1.0904,89.9838,8
3,0,-4,1.0859,90.4595,4
0,-4,-2,1.0852,90.534,4
2,-4,-1,1.0848,90.5767,8
5,0,-2,1.0841,90.6514,4
-1,4,-2,1.0677,92.446,8
4,-3,1,1.0658,92.6594,8
-2,2,4,1.0643,92.8287,8
3,1,-4,1.0589,93.4444,8
5,1,-2,1.0573,93.6287,8
-5,2,-1,1.0458,94.9798,8
0,0,5,1.0368,96.0706,2
1,0,-5,1.0215,97.9973,4
4,2,-3,1.021,98.0619,8
2,4,2,1.0199,98.2043,4
0,1,5,1.0132,99.083,4
3,-3,-3,1.0094,99.5902,4

File: betaSnHKL.csv
H,K,L,Distance,2theta/TOF,Mult
0,0,1,3.1813,28.048,2
0,2,0,2.9158,30.6619,4
1,0,-1,2.7927,32.049,8
1,-2,0,2.608,34.3868,8
-1,-1,1,2.5188,35.6447,8
2,0,1,2.1495,42.0347,8
2,2,0,2.0618,43.9135,4
1,-2,-1,2.0168,44.9461,16
0,3,0,1.9439,46.7296,4
3,1,0,1.8441,49.4227,8
-2,-2,1,1.7302,52.9192,8
0,3,-1,1.6587,55.3911,8
-2,3,0,1.6174,56.9326,8
-1,-3,-1,1.5954,57.7911,8
0,0,2,1.5906,57.982,2
-1,0,2,1.5345,60.3167,8
-1,1,-2,1.484,62.5958,16
0,4,0,1.4579,63.8472,4
-3,-2,1,1.4417,64.6512,16
-1,4,0,1.4143,66.0616,8
0,2,2,1.3963,67.0246,8
-3,3,0,1.3745,68.2324,8
1,2,2,1.3579,69.1841,8
0,-4,1,1.3253,71.1397,8
4,2,0,1.304,72.4839,8
-4,1,-1,1.2924,73.2397,16
-3,-3,1,1.2618,75.3191,8
2,-2,2,1.2594,75.4878,8
0,3,-2,1.231,77.5487,8
2,-4,-1,1.2065,79.4304,16
3,1,-2,1.2044,79.5965,16
0,-5,0,1.1663,82.7518,4
1,5,0,1.1436,84.7712,8
-2,3,2,1.1341,85.6504,16
4,-3,1,1.095,89.5035,16
2,-5,0,1.0829,90.78,8
5,-1,-1,1.0762,91.5055,8
0,-4,-2,1.0747,91.6698,8
0,0,3,1.0604,93.2724,2
-1,4,-2,1.0569,93.675,16
0,-1,3,1.0433,95.2798,8
-3,-3,2,1.04,95.6793,8
4,4,0,1.0309,96.8025,4
1,1,-3,1.027,97.2938,8
-5,2,-1,1.0251,97.5354,16
-4,-2,-2,1.0084,99.7247,8

File: Sn_Extinction_peak.csv
H,K,L,Distance,2theta/TOF,Mult
0,0,1,3.1813,28.048,2
1,-2,0,2.608,34.3868,8
-1,-1,1,2.5188,35.6447,8
2,0,1,2.1495,42.0347,8
0,3,0,1.9439,46.7296,4
3,1,0,1.8441,49.4227,8
-2,-2,1,1.7302,52.9192,8
-2,3,0,1.6174,56.9326,8
-1,-3,-1,1.5954,57.7911,8
0,0,2,1.5906,57.982,2
-1,0,2,1.5345,60.3167,8
-1,4,0,1.4143,66.0616,8
0,2,2,1.3963,67.0246,8
-3,3,0,1.3745,68.2324,8
1,2,2,1.3579,69.1841,8
0,-4,1,1.3253,71.1397,8
-3,-3,1,1.2618,75.3191,8
2,-2,2,1.2594,75.4878,8
0,3,-2,1.231,77.5487,8
2,-4,-1,1.2065,79.4304,16
0,-5,0,1.1663,82.7518,4
1,5,0,1.1436,84.7712,8
-2,3,2,1.1341,85.6504,16
2,-5,0,1.0829,90.78,8
5,-1,-1,1.0762,91.5055,8
0,-4,-2,1.0747,91.6698,8
0,0,3,1.0604,93.2724,2
-1,4,-2,1.0569,93.675,16
1,1,-3,1.027,97.2938,8
-4,-2,-2,1.0084,99.7247,8

File: SnHKL.csv
H,K,L,Distance,2theta/TOF,Mult
0,2,0,2.9158,30.6619,4
1,0,-1,2.7927,32.049,8
2,2,0,2.0618,43.9135,4
1,-2,-1,2.0168,44.9461,16
0,3,-1,1.6587,55.3911,8
-1,1,-2,1.484,62.5958,16
0,4,0,1.4579,63.8472,4
-3,-2,1,1.4417,64.6512,16
4,2,0,1.304,72.4839,8
-4,1,-1,1.2924,73.2397,16
3,1,-2,1.2044,79.5965,16
4,-3,1,1.095,89.5035,16
0,-1,3,1.0433,95.2798,8
-3,-3,2,1.04,95.6793,8
4,4,0,1.0309,96.8025,4
-5,2,-1,1.0251,97.5354,16