Folder: WPEM/Papers/CoBasedSuperalloys /base/output_xrd

Note: Papers/CoBasedSuperalloys /README.md
``` javascript
Linlin Sun, Bin Cao, Qingshuang Ma, Qiuzhi Gao, Jiahao Luo, Minglong Gong, Jing Bai, Huijun Li,
Machine learning-assisted composition design of W-free Co-based superalloys with high γ′-solvus temperature and low density,
Journal of Materials Research and Technology,
Volume 29,
2024,
Pages 656-667,
ISSN 2238-7854,
https://doi.org/10.1016/j.jmrt.2024.01.040.
(https://www.sciencedirect.com/science/article/pii/S2238785424000401)
```

File: BCCAlHKL.csv
H,K,L,Distance,2theta/TOF,Mult
0,0,1,2.866,31.2081,6
-1,1,0,2.0265,44.7193,24
-1,-1,1,1.6546,55.5402,24
0,2,0,1.433,65.092,6
2,0,1,1.2817,73.9523,24
1,-2,-1,1.17,82.433,48
0,2,2,1.0132,99.083,12
-2,-2,1,0.9553,107.606,24
3,1,0,0.9063,116.559,24

File: CoHKL.csv
H,K,L,Distance,2theta/TOF,Mult
0,0,1,3.32,26.8538,6
-1,1,0,2.3475,38.3434,24
-1,-1,1,1.9168,47.4305,24
0,2,0,1.66,55.344,6
2,0,1,1.4847,62.563,24
1,-2,-1,1.3553,69.3358,48
0,2,2,1.1737,82.1169,12
-2,-2,1,1.1066,88.3187,24
3,1,0,1.0498,94.5045,24
-1,-3,-1,1.001,100.735,24
2,-2,2,0.9584,107.101,24
-2,3,0,0.9208,113.697,24

File: FCCAlHKL.csv
H,K,L,Distance,2theta/TOF,Mult
0,0,1,4.037,22.018,6
-1,1,0,2.8546,31.336,24
-1,-1,1,2.3307,38.6307,24
0,2,0,2.0185,44.9062,6
2,0,1,1.8054,50.5556,24
1,-2,-1,1.6481,55.7784,48
0,2,2,1.4273,65.3843,12
-2,-2,1,1.3456,69.9081,24
3,1,0,1.2766,74.2973,24
-1,-3,-1,1.2172,78.5962,24
2,-2,2,1.1653,82.8385,24
-2,3,0,1.1196,87.0336,24
-2,1,-3,1.0789,91.2115,48
0,4,0,1.0092,99.6171,6
0,-1,4,0.9791,103.882,24
-4,1,-1,0.9515,108.234,48
3,-1,3,0.9261,112.7,24
4,2,0,0.9027,117.302,24

File: NiHKL.csv
H,K,L,Distance,2theta/TOF,Mult
0,0,1,3.6,24.7307,6
-1,1,0,2.5455,35.2584,24
-1,-1,1,2.0784,43.5447,24
0,2,0,1.8,50.718,6
2,0,1,1.6099,57.2222,24
1,-2,-1,1.4696,63.2797,48
0,2,2,1.2727,74.5636,12
-2,-2,1,1.2,79.947,24
3,1,0,1.1384,85.2498,24
-1,-3,-1,1.0854,90.5127,24
2,-2,2,1.0392,95.7768,24
-2,3,0,0.9984,101.096,24
-2,1,-3,0.9621,106.507,48
0,4,0,0.9,117.869,6