Folder: WPEM/Papers/ Layered/B-811/LatticC/output_xrd

Note: Papers/README.md
# WPEM
A X-ray Diffraction Refinement Software

Here are some refinement applications of WPEM in published papers

File: LiTMO3HKL.csv
H,K,L,Distance,2theta/TOF,Mult
0,0,2,7.0805,12.5014,2
0,0,3,4.7203,18.7993,2
0,0,-4,3.5402,25.1552,2
0,0,5,2.8322,31.5902,2
0,1,0,2.4807,36.2109,6
1,0,-1,2.4435,36.7818,12
0,0,6,2.3601,38.1308,2
-1,0,2,2.3411,38.4524,12
0,-1,3,2.1959,41.1059,12
0,-1,4,2.0316,44.601,12
0,0,7,2.0229,44.8032,2
0,1,5,1.8661,48.8017,12
0,0,8,1.7701,51.6372,2
0,1,6,1.7099,53.5973,12
0,0,-9,1.5734,58.6773,2
-1,0,-7,1.5677,58.9116,12
0,1,8,1.4409,64.6914,12
1,1,0,1.4322,65.1328,6
-1,-1,1,1.4249,65.5082,12
0,0,-10,1.4161,65.9669,2
1,1,2,1.4038,66.6197,12
1,1,-3,1.3705,68.4591,12
1,0,-9,1.3287,70.9301,12
-1,-1,-4,1.3277,70.9916,12
0,0,-11,1.2873,73.5774,2
1,1,5,1.2781,74.1955,12
0,2,0,1.2403,76.8602,6
2,0,1,1.2356,77.2065,12
0,1,-10,1.2298,77.6386,12
1,1,6,1.2244,78.0458,12
0,2,2,1.2217,78.2512,12
0,2,3,1.1996,79.9791,12
0,0,12,1.18,81.5851,2
0,-2,4,1.1705,82.3901,12
1,1,7,1.1689,82.5275,12
0,-1,11,1.1426,84.8628,12
0,2,5,1.1361,85.4635,12
-1,-1,8,1.1134,87.641,12
0,2,-6,1.0979,89.2038,12