Folder: WPEM/Papers/SAC105Bgolearn/output_xrd

Note: Papers/README.md
# WPEM
A X-ray Diffraction Refinement Software

Here are some refinement applications of WPEM in published papers

File: Ti2Sn3HKL.csv
H,K,L,Distance,2theta/TOF,Mult
0,0,2,3.514,25.3459,2
0,-6,0,3.3273,26.7938,2
0,2,2,3.3146,26.8984,4
0,6,-1,3.0073,29.7071,4
-1,5,-1,2.9992,29.7892,4
-1,1,-2,2.9922,29.8605,8
2,0,0,2.9778,30.0083,2
0,-4,-2,2.8733,31.1268,4
2,2,0,2.8535,31.3483,1
1,3,-2,2.7549,32.5008,8
-2,-2,1,2.6439,33.9057,1
-2,4,0,2.5572,35.0919,4
0,-8,0,2.4955,35.9888,2
0,6,2,2.416,37.2157,4
-1,7,1,2.4155,37.2237,8
-1,5,2,2.4119,37.2813,8
2,-4,-1,2.403,37.4245,8
0,-8,1,2.3516,38.274,4
0,2,3,2.2807,39.5125,4
-2,0,-2,2.2718,39.6737,4
2,6,0,2.2189,40.6608,4
2,-2,2,2.2151,40.7337,4
1,1,-3,2.1672,41.6754,1
0,4,-3,2.1207,42.6332,4
2,-6,-1,2.1159,42.7347,8
-1,7,-2,2.0756,43.6065,8
-1,3,3,2.0717,43.6928,4
2,4,2,2.0676,43.7839,4
0,-8,-2,2.0346,44.5317,4
0,-10,0,1.9964,45.4309,2
1,-9,-1,1.9933,45.5056,8
0,-10,-1,1.9204,47.3361,4
0,6,3,1.9155,47.4646,4
-1,5,3,1.9134,47.5199,8
2,8,0,1.9126,47.541,4
-3,1,-1,1.9017,47.8305,8
-2,6,2,1.8762,48.5221,8
-2,8,-1,1.8455,49.3827,8
-3,-3,1,1.8362,49.6496,1
-2,2,-3,1.8106,50.4003,8
1,-9,-2,1.7891,51.0492,8
0,0,-4,1.757,52.0509,2
0,10,2,1.7358,52.7353,4
-1,-7,-3,1.732,52.86,8
0,-2,4,1.7304,52.9126,4
2,4,-3,1.7274,53.0117,8
-3,5,1,1.7233,53.1477,8
3,1,-2,1.722,53.191,8
0,8,-3,1.708,53.6617,4
-1,-11,1,1.6854,54.4403,8
-2,-8,2,1.6799,54.6334,8
-1,-1,-4,1.6792,54.658,1
-3,-3,2,1.6729,54.8812,1
0,12,0,1.6636,55.214,2
2,-10,0,1.6582,55.4093,4
0,-4,-4,1.6573,55.442,4
1,-3,-4,1.6336,56.3173,8
0,12,1,1.6189,56.875,4
-2,10,1,1.6139,57.0674,8
2,-6,-3,1.611,57.1795,8
-3,7,1,1.5872,58.1181,8
3,5,2,1.5862,58.1582,8
1,-11,2,1.5564,59.382,8
1,-9,3,1.5548,59.4493,8
0,6,-4,1.5537,59.4956,4
1,-5,-4,1.5525,59.5462,8
0,-10,-3,1.5195,60.9751,4
2,0,-4,1.5132,61.2562,4
3,-1,3,1.5102,61.391,4
0,12,-2,1.5036,61.6898,4
2,-10,2,1.4996,61.8725,4
-2,2,4,1.4961,62.0332,8
-4,0,0,1.4889,62.3667,2
-2,-8,3,1.4815,62.7134,8
-3,-7,-2,1.4781,62.8741,8
3,-3,-3,1.4767,62.9405,4
4,2,0,1.4726,63.1359,4
2,12,0,1.4523,64.1227,4
1,7,4,1.4508,64.1969,8
-2,4,4,1.4481,64.331,4
3,9,1,1.4475,64.3609,8
-4,-2,-1,1.4413,64.6713,8
0,8,4,1.4366,64.9088,4
4,4,0,1.4267,65.4152,1
2,12,1,1.4223,65.643,8
-3,5,3,1.416,65.9721,8
-4,4,1,1.3982,66.9216,8
-1,-11,-3,1.3948,67.1063,8
0,2,5,1.3918,67.2702,4
2,-6,4,1.3774,68.069,8
-4,0,-2,1.3709,68.4364,4
1,1,5,1.3648,68.785,1
3,-9,-2,1.3634,68.8656,8
-4,6,0,1.359,69.1202,4
-4,-2,-2,1.3581,69.1725,4
0,12,-3,1.3564,69.2715,4
-2,10,-3,1.3534,69.4471,8
0,-4,5,1.3529,69.4764,4
2,12,-2,1.3422,70.1111,8
-1,-9,-4,1.3418,70.1351,8
1,3,5,1.34,70.2432,8
3,7,-3,1.3376,70.3879,8
-4,6,1,1.3343,70.5879,8
-4,4,2,1.3219,71.3506,8
0,10,4,1.3189,71.5378,4
-3,-11,1,1.3158,71.7324,8
3,1,-4,1.3128,71.9219,8
0,-6,5,1.2948,73.0819,4
1,5,-5,1.2941,73.1278,8
2,8,4,1.2939,73.141,8
-3,-3,-4,1.2907,73.3519,1
-4,8,0,1.2786,74.1616,4
4,-6,2,1.2675,74.9219,8
2,2,-5,1.2609,75.3823,1
4,-8,-1,1.2579,75.5936,8
3,-11,2,1.2516,76.0416,8
3,-9,3,1.2508,76.0989,4
-3,5,4,1.2496,76.1851,8
4,2,-3,1.2467,76.3942,8
-1,-11,4,1.2349,77.2583,8
-2,12,3,1.2343,77.3028,8
-1,-7,-5,1.2334,77.3697,8
-2,-4,-5,1.2318,77.489,8
0,-8,5,1.2247,78.023,4
4,4,-3,1.2185,78.4962,1
0,12,-4,1.208,79.3123,4
2,10,4,1.2059,79.4778,8
-4,8,2,1.2015,79.8271,8
3,7,4,1.1947,80.3738,8
-4,10,0,1.1935,80.4712,4
2,-6,-5,1.1874,80.9702,8
4,-10,1,1.1766,81.8711,8
-4,6,-3,1.1755,81.9642,8
5,-1,-1,1.1723,82.2362,4
0,0,6,1.1713,82.3216,2
-1,9,-5,1.1644,82.9166,8
0,2,-6,1.1633,83.0124,4
3,11,3,1.1628,83.056,4
5,3,1,1.1565,83.61,8
-1,1,6,1.1474,84.4253,8
-3,-1,5,1.1452,84.6252,8
0,4,6,1.1403,85.0742,4
4,0,4,1.1359,85.4822,4
-2,-8,-5,1.1326,85.7911,8
1,-3,-6,1.1325,85.8005,8
3,-9,4,1.1316,85.8852,8
3,3,5,1.1304,85.9985,1
4,10,2,1.1301,86.0269,8
4,-2,4,1.1286,86.169,4
5,5,-1,1.1266,86.3594,1
5,1,-2,1.1262,86.3976,8
-4,-8,-3,1.1223,86.7721,8
-2,12,4,1.1194,87.0531,8
5,-3,2,1.1122,87.7598,8
4,12,0,1.1094,88.0382,4
4,4,4,1.1075,88.2283,1
0,6,-6,1.1048,88.5002,4
1,-5,6,1.1044,88.5406,8
-3,-5,5,1.1025,88.7333,8
4,12,-1,1.0959,89.4103,8
1,11,-5,1.0924,89.7742,8
-2,0,-6,1.09,90.0258,4
-5,-7,-1,1.0859,90.4595,8
-5,-5,2,1.0855,90.5021,1
-2,2,6,1.0836,90.7049,8
-4,-6,-4,1.0749,91.6478,4
0,12,-5,1.0736,91.7907,4
-2,-10,5,1.0722,91.9452,8
1,-7,-6,1.066,92.6369,8
3,-11,-4,1.0652,92.727,8
2,4,6,1.0649,92.7609,8
3,-7,5,1.0643,92.8287,8
4,10,3,1.0634,92.9307,8
0,8,-6,1.0603,93.2839,4
5,-1,3,1.0602,93.2953,8
-4,12,2,1.0579,93.5595,8
5,7,-2,1.0489,94.611,8
5,-3,3,1.0485,94.6584,8
-5,-9,1,1.0378,95.9479,8
2,6,6,1.0358,96.1937,4
4,8,-4,1.0338,96.4411,8
5,-5,3,1.0261,97.4081,8
-1,-9,-6,1.0204,98.1395,8
-3,9,5,1.0189,98.3342,8
4,2,-5,1.0167,98.6216,8
2,12,-5,1.01,99.5097,8
-3,-1,-6,1.0075,99.8462,8