Folder: WPEM/Papers/MgCAST/WPEM10premin_annealing/output_xrd

Note: Papers/README.md
# WPEM
A X-ray Diffraction Refinement Software

Here are some refinement applications of WPEM in published papers

File: GdAl2_Extinction_peak.csv
H,K,L,Distance,2theta/TOF,Mult
0,0,1,7.8843,11.2226,6
-1,1,0,5.5751,15.8966,24
0,2,0,3.9421,22.555,6
2,0,1,3.526,25.2582,24
1,-2,-1,3.2187,27.7156,48
-2,-2,1,2.6281,34.1157,24
3,1,0,2.4932,36.0231,24
-2,3,0,2.1867,41.2867,24
-2,1,-3,2.1071,42.922,48
0,-1,4,1.9122,47.5516,24
-4,1,-1,1.8583,49.02,48
4,2,0,1.763,51.8606,24
2,-1,-4,1.7205,53.241,48
-3,-2,3,1.6809,54.5982,48
0,-5,0,1.5768,58.5385,6
3,1,-4,1.5462,59.8135,48
2,4,-3,1.464,63.55,48
2,-1,5,1.4394,64.7671,48
2,2,-5,1.3724,68.3512,24
0,-5,3,1.3521,69.5235,24
-4,4,2,1.314,71.8459,48
1,6,0,1.2961,72.9967,24
3,5,2,1.279,74.1345,48
0,-5,4,1.2313,77.5263,24
-5,1,-4,1.2165,78.6502,48
0,6,3,1.1753,81.9811,24
6,-3,-1,1.1624,83.0909,48
0,7,0,1.1263,86.3881,6
-7,0,1,1.115,87.4833,24
-4,6,0,1.0933,89.6803,24

File: LiAlHKL.csv
H,K,L,Distance,2theta/TOF,Mult
-1,-1,1,3.6527,24.3684,24
0,2,2,2.2368,40.3212,12
-1,-3,-1,1.9075,47.676,24
0,4,0,1.5816,58.3437,6
3,-1,3,1.4514,64.1672,24
-2,2,4,1.2914,73.3056,48
3,-3,-3,1.2175,78.5731,24
4,0,4,1.1184,87.1504,12

File: YAl2_Extinction_peak.csv
H,K,L,Distance,2theta/TOF,Mult
0,0,1,7.8488,11.2735,6
-1,1,0,5.5499,15.9692,24
0,2,0,3.9244,22.658,6
2,0,1,3.5101,25.3745,24
1,-2,-1,3.2042,27.8435,48
-2,-2,1,2.6162,34.2757,24
3,1,0,2.482,36.1913,24
-2,3,0,2.1768,41.4831,24
-2,1,-3,2.0976,43.1261,48
0,-1,4,1.9036,47.7798,24
-4,1,-1,1.8499,49.2574,48
4,2,0,1.755,52.1147,24
2,-1,-4,1.7127,53.5027,48
-3,-2,3,1.6733,54.8669,48
0,-5,0,1.5697,58.8292,6
3,1,-4,1.5392,60.1135,48
2,4,-3,1.4574,63.8717,48
2,-1,5,1.433,65.092,48
2,2,-5,1.3663,68.699,24
0,-5,3,1.346,69.8843,24
-4,4,2,1.3081,72.2208,48
1,6,0,1.2903,73.3783,24
3,5,2,1.2732,74.5294,48
0,-5,4,1.2257,77.9473,24
-5,1,-4,1.2111,79.0694,48
0,6,3,1.17,82.433,24
6,-3,-1,1.1572,83.548,48
0,7,0,1.1212,86.8784,6
-7,0,1,1.1099,87.9883,24