Folder: WPEM/Papers/CryValid/output_xrd

Note: Papers/README.md
# WPEM
A X-ray Diffraction Refinement Software

Here are some refinement applications of WPEM in published papers

File: NTCAR99_Extinction_peak.csv
H,K,L,Distance,2theta/TOF,Mult
0,0,1,8.0638,10.972,2
0,1,0,7.9788,11.0893,4
1,0,-1,5.6717,15.6241,8
-1,1,0,5.6419,15.7071,8
-1,-1,1,4.6227,19.2,8
-1,0,2,3.5985,24.7411,8
2,0,1,3.5757,24.9014,8
1,-2,0,3.5682,24.9546,8
-1,1,-2,3.2803,27.185,16
1,-2,-1,3.263,27.3319,16
0,0,3,2.6879,33.3343,2
1,2,2,2.672,33.5385,8
-2,-2,1,2.6627,33.6591,8
0,3,0,2.6596,33.6995,4
0,-1,3,2.5472,35.2341,8
0,3,-1,2.5257,35.544,8
3,1,0,2.5231,35.5819,8
1,1,-3,2.4266,37.0472,8
-1,-3,-1,2.408,37.3439,8
0,2,3,2.2291,40.4666,8
0,3,-2,2.2201,40.6379,8
-2,3,0,2.2129,40.776,8
-2,1,-3,2.1469,42.0881,16
3,1,-2,2.1388,42.2551,16
-3,-2,1,2.134,42.3547,16
0,-1,4,1.9545,46.4613,8
-2,2,-3,1.9459,46.6787,16
-2,3,2,1.9399,46.8317,16
0,-4,1,1.9363,46.924,8
-1,4,0,1.9351,46.9548,8
-1,-1,-4,1.8984,47.9188,8
3,0,-3,1.8905,48.1317,8
-4,1,-1,1.8817,48.3711,16
-3,3,0,1.8806,48.4013,8
3,-1,3,1.8396,49.5517,8
-3,-3,1,1.8314,49.7886,8
2,-1,-4,1.7552,52.1083,16
-1,4,-2,1.7446,52.449,16
2,-4,-1,1.742,52.5332,16
-3,-2,3,1.7084,53.6482,16
-3,-3,2,1.7043,53.7876,8
0,0,5,1.6127,57.1137,2
0,-3,4,1.6065,57.3545,8
0,4,-3,1.6018,57.5385,8
0,-5,0,1.5957,57.7792,4
0,1,5,1.5807,58.3801,8
3,1,-4,1.5749,58.616,16
4,-1,3,1.5704,58.8004,16
4,-3,1,1.5654,59.0067,16
1,5,0,1.5647,59.0358,8
1,1,5,1.5506,59.6266,8
3,-3,-3,1.5409,60.0404,8
5,-1,-1,1.5361,60.2474,8
0,2,5,1.4952,62.0747,8
2,3,4,1.4902,62.3062,16
2,4,-3,1.4864,62.4834,16
-3,-4,2,1.4837,62.6099,16
2,-5,0,1.4816,62.7087,8
2,-1,5,1.4696,63.2797,16
5,1,-2,1.4587,63.8081,16
-5,2,-1,1.4572,63.8815,16
2,2,-5,1.4001,66.8188,8
4,1,4,1.396,67.041,8
5,2,-2,1.3907,67.3305,16
-4,4,1,1.3893,67.4074,16
0,3,-5,1.379,67.9793,8
-3,-3,-4,1.3751,68.1985,8
0,-5,3,1.3721,68.3682,8
5,3,0,1.3683,68.5845,8
-3,-1,5,1.3588,69.1318,16
5,-1,3,1.3523,69.5117,16
5,3,1,1.349,69.7063,16
0,1,6,1.3252,71.1458,8
0,6,-1,1.312,71.9726,8
1,6,0,1.3117,71.9916,8
-1,1,6,1.3073,72.272,16
2,-3,-5,1.3033,72.529,16
-5,-2,3,1.2975,72.9053,16
3,5,2,1.2957,73.0229,16
1,-6,1,1.2947,73.0884,8
-1,-2,-6,1.2577,75.6077,16
0,-4,5,1.2541,75.8631,8
0,-5,4,1.2512,76.0703,8
4,4,-3,1.2489,76.2354,8
1,-6,2,1.2473,76.3508,16
2,-6,-1,1.2464,76.4159,16
-4,5,0,1.246,76.4448,8
4,1,5,1.2389,76.963,16
-5,1,-4,1.2361,77.1695,16
4,5,1,1.2314,77.5188,16
3,3,5,1.2242,78.061,8
5,-3,3,1.2194,78.4271,16
3,0,-6,1.1995,79.9871,8
-2,-4,-5,1.1964,80.2364,16
-2,-5,4,1.1938,80.4468,16
0,6,3,1.1919,80.6014,8
4,-5,2,1.1905,80.7158,16
-3,6,0,1.1894,80.8058,8
1,-3,-6,1.1861,81.0775,16
6,-1,3,1.1788,81.6858,16
6,-3,-1,1.1766,81.8711,16
0,0,7,1.1519,84.0199,2
2,-3,-6,1.1487,84.3077,16
6,2,3,1.142,84.9178,16
6,3,-2,1.1408,85.0282,16
-1,0,-7,1.1401,85.0927,8
0,7,0,1.1398,85.1204,4
4,-3,-5,1.1343,85.6316,16
-3,5,4,1.1321,85.8381,16
5,-4,3,1.1305,85.989,16
-7,0,1,1.1286,86.169,8
-7,-1,0,1.1283,86.1975,8
5,-1,-5,1.123,86.7046,16
-1,7,1,1.1174,87.248,16
2,0,7,1.1067,88.3087,8
-1,-4,-6,1.1038,88.6013,16
1,6,-4,1.0994,89.0497,16
-7,0,-2,1.0968,89.3172,8
-4,6,1,1.0962,89.3792,16
7,2,0,1.0959,89.4103,8
3,3,-6,1.0934,89.6699,8
5,2,5,1.091,89.9208,8
3,-6,3,1.0876,90.2791,8
-7,-1,-2,1.0866,90.3851,16
-7,-2,-1,1.0859,90.4595,16
2,2,-7,1.0664,92.5919,8
4,4,-5,1.0617,93.1239,8
4,5,4,1.0599,93.3297,8
2,-7,2,1.0576,93.5941,8
0,3,7,1.057,93.6634,8
0,7,-3,1.0493,94.5636,8
3,-1,-7,1.0479,94.7296,16
-3,7,0,1.0476,94.7652,8
-3,-5,5,1.0434,95.2677,16
7,1,-3,1.0404,95.6307,16
-3,7,1,1.0389,95.8134,16
0,-5,-6,1.0279,97.1799,8
0,-6,5,1.026,97.4208,8
6,-3,4,1.0244,97.6248,16
-4,6,-3,1.0231,97.7914,16
-3,2,-7,1.0218,97.9586,16
-6,-5,0,1.0215,97.9973,8
1,-5,6,1.0195,98.2562,16
-1,-6,5,1.0176,98.5038,16
7,2,3,1.0148,98.8714,16
7,-3,-2,1.014,98.9771,16
-6,5,-1,1.0134,99.0565,16
0,1,8,1.0,100.873,8
-4,0,-7,0.9975,101.221,8
5,-2,-6,0.9954,101.516,16
-6,-2,5,0.9936,101.771,16
0,-7,4,0.9922,101.97,8
-6,-5,-2,0.9902,102.256,16
0,-8,1,0.9898,102.313,8
8,-1,0,0.9896,102.342,8
5,4,5,0.986,102.864,8
1,7,4,0.9846,103.068,16
-3,-3,-7,0.9823,103.406,8
-4,7,1,0.9822,103.421,16
3,7,-3,0.9761,104.333,16
2,-1,8,0.97,105.266,16
4,2,-7,0.9677,105.623,16
-7,2,-4,0.9628,106.395,16
7,-4,2,0.9611,106.667,16
-2,8,-1,0.9606,106.747,16
-5,3,6,0.9588,107.037,16
-3,6,5,0.9572,107.296,16
-5,-6,-3,0.9549,107.672,16
0,-3,8,0.9425,109.761,8
-1,6,6,0.9387,110.423,8
-1,3,8,0.936,110.9,16
8,0,-3,0.935,111.078,8
-5,0,-7,0.934,111.257,8
-6,6,-1,0.9339,111.275,16
-3,8,0,0.9338,111.293,8
7,0,-5,0.9308,111.835,8
3,7,4,0.9296,112.054,16
7,4,3,0.9287,112.219,16
3,8,-1,0.9276,112.422,16
7,5,0,0.9275,112.44,8
5,5,-5,0.9245,112.998,8
-5,-7,-1,0.9214,113.583,16
2,-3,8,0.9173,114.37,16
-4,-5,6,0.9137,115.073,16
6,4,5,0.9123,115.35,16
-5,6,4,0.9112,115.569,16
8,2,3,0.9103,115.749,16
8,3,-2,0.9097,115.87,16
2,-5,-7,0.9094,115.93,16
7,2,5,0.9064,116.539,16
-7,-5,2,0.9039,117.053,16
0,0,-9,0.8959,118.745,2
4,4,-7,0.8922,119.553,8
-3,-6,-6,0.8906,119.907,8
1,0,-9,0.8903,119.974,8
-3,-3,-8,0.8884,120.399,8
1,8,-4,0.8883,120.422,16
-6,6,-3,0.8875,120.602,16
4,-8,-1,0.8866,120.807,16
9,0,0,0.8865,120.83,4
-1,1,9,0.8848,121.218,16
3,8,-3,0.8821,121.844,16
9,0,-1,0.8812,122.055,8
-1,-9,0,0.8811,122.079,8
-7,-3,-5,0.8785,122.694,16
-5,7,-3,0.8767,123.126,16
9,-1,-1,0.8759,123.32,8
0,2,-9,0.8742,123.735,8
0,6,-7,0.8707,124.602,8
0,-7,-6,0.8692,124.98,8

File: NTCAR99HKL.csv
H,K,L,Distance,2theta/TOF,Mult
0,0,2,4.0319,22.0462,2
0,2,0,3.9894,22.2841,4
0,2,2,2.8358,31.5491,8
2,2,0,2.8209,31.7201,4
2,-2,2,2.3113,38.968,8
0,0,-4,2.0159,44.9673,2
0,4,0,1.9947,45.4718,4
0,-2,4,1.7992,50.7422,8
0,-4,-2,1.7878,51.0889,8
4,2,0,1.7841,51.2026,8
-2,2,4,1.6401,56.0744,16
-4,-2,-2,1.6315,56.3963,8
4,0,4,1.4179,65.8725,8
4,4,0,1.4104,66.2677,4
0,0,6,1.3439,70.0094,2
-2,4,4,1.336,70.4847,8
-4,4,2,1.3313,70.7707,16
0,-6,0,1.3298,70.8626,4
0,2,-6,1.2736,74.502,8
0,6,2,1.2628,75.2491,8
6,-2,0,1.2615,75.3402,8
-2,2,6,1.2133,78.898,16
-2,6,2,1.204,79.6282,16
4,4,4,1.1556,83.6898,1
-4,0,-6,1.1145,87.5326,8
6,0,-4,1.11,87.9784,8
-4,6,0,1.1064,88.3388,8
-4,-2,-6,1.0734,91.8128,16
-6,-2,-4,1.0694,92.2561,16
6,4,-2,1.067,92.5245,16
0,0,8,1.0079,99.7922,2
-8,0,0,0.9973,101.249,4
2,0,8,0.9772,104.167,8
4,-4,6,0.9729,104.82,16
-4,-6,-4,0.9699,105.281,8
0,-8,-2,0.9681,105.561,8
-8,2,0,0.9675,105.654,8
-2,-2,8,0.9492,108.619,8
0,6,-6,0.9452,109.297,8
-8,-2,-2,0.9408,110.056,8
6,6,0,0.9403,110.143,4
2,6,6,0.9198,113.888,8
-6,-6,2,0.9157,114.681,8
0,4,-8,0.8996,117.954,8
8,0,4,0.8939,119.179,8
-8,4,0,0.892,119.597,8
2,-4,-8,0.8776,122.91,16
2,8,4,0.8723,124.203,16
-4,8,2,0.871,124.527,16

File: TCAR123_Extinction_peak.csv
H,K,L,Distance,2theta/TOF,Mult
0,0,1,8.0357,11.0105,2
0,1,0,7.9924,11.0703,4
1,0,-1,5.6667,15.638,8
-1,1,0,5.6515,15.6803,8
-1,-1,1,4.6227,19.2,8
-1,0,2,3.5898,24.8021,8
2,0,1,3.5781,24.8845,8
1,-2,0,3.5743,24.9113,8
-1,1,-2,3.2746,27.2333,16
1,-2,-1,3.2658,27.3081,16
0,0,3,2.6785,33.4547,2
1,2,2,2.6705,33.5579,8
-2,-2,1,2.6657,33.6201,8
0,3,0,2.6641,33.6409,4
0,-1,3,2.5397,35.3416,8
0,3,-1,2.5287,35.5005,8
3,1,0,2.5274,35.5193,8
1,1,-3,2.4204,37.1456,8
-1,-3,-1,2.4109,37.2974,8
0,2,3,2.225,40.5444,8
0,3,-2,2.2203,40.6341,8
-2,3,0,2.2167,40.703,8
-2,1,-3,2.1434,42.1601,16
3,1,-2,2.1393,42.2447,16
-3,-2,1,2.1368,42.2965,16
0,-1,4,1.9483,46.6178,8
-2,2,-3,1.9439,46.7296,16
-2,3,2,1.9409,46.8062,16
0,-4,1,1.939,46.8548,8
-1,4,0,1.9384,46.8701,8
-1,-1,-4,1.8929,48.0668,8
3,0,-3,1.8889,48.1751,8
-4,1,-1,1.8844,48.2974,16
-3,3,0,1.8838,48.3138,8
3,-1,3,1.8382,49.592,8
-3,-3,1,1.8341,49.7103,8
2,-1,-4,1.7512,52.2363,16
-1,4,-2,1.7458,52.4102,16
2,-4,-1,1.7445,52.4522,16
-3,-2,3,1.7077,53.6719,16
-3,-3,2,1.7056,53.7433,8
0,0,5,1.6071,57.3311,2
0,-3,4,1.604,57.4523,8
0,4,-3,1.6015,57.5503,8
0,-5,0,1.5984,57.6724,4
0,1,5,1.5756,58.5874,8
3,1,-4,1.5726,58.7101,16
4,-1,3,1.5703,58.8045,16
4,-3,1,1.5677,58.9116,16
1,5,0,1.5674,58.924,8
1,1,5,1.5458,59.8306,8
3,-3,-3,1.5409,60.0404,8
5,-1,-1,1.5384,60.148,8
0,2,5,1.491,62.269,8
2,3,4,1.4885,62.3853,16
2,4,-3,1.4866,62.474,16
-3,-4,2,1.4852,62.5395,16
2,-5,0,1.4841,62.5911,8
2,-1,5,1.4658,63.4628,16
5,1,-2,1.4602,63.7348,16
-5,2,-1,1.4594,63.7738,16
2,2,-5,1.397,66.9866,8
4,1,4,1.3949,67.1008,8
5,2,-2,1.3922,67.2483,16
-4,4,1,1.3915,67.2866,16
0,3,-5,1.3761,68.1422,8
-3,-3,-4,1.3741,68.255,8
0,-5,3,1.3726,68.3399,8
5,3,0,1.3706,68.4534,8
-3,-1,5,1.3561,69.289,16
5,-1,3,1.3528,69.4823,16
5,3,1,1.3511,69.5823,16
0,1,6,1.3208,71.4191,8
0,6,-1,1.3141,71.8396,8
1,6,0,1.3139,71.8523,8
-1,1,6,1.3032,72.5355,16
2,-3,-5,1.3011,72.6712,16
-5,-2,3,1.2982,72.8596,16
3,5,2,1.2972,72.9248,16
1,-6,1,1.2967,72.9575,8
-1,-2,-6,1.2541,75.8631,16
0,-4,5,1.2523,75.9915,8
0,-5,4,1.2508,76.0989,8
4,4,-3,1.2496,76.1851,8
1,-6,2,1.2488,76.2426,16
2,-6,-1,1.2483,76.2787,16
-4,5,0,1.2482,76.2859,8
4,1,5,1.2372,77.0882,16
-5,1,-4,1.2357,77.199,16
4,5,1,1.2334,77.3697,16
3,3,5,1.2226,78.1826,8
5,-3,3,1.2202,78.3658,16
3,0,-6,1.1966,80.2202,8
-2,-4,-5,1.195,80.3495,16
-2,-5,4,1.1937,80.455,16
0,6,3,1.1927,80.5363,8
4,-5,2,1.192,80.5933,16
-3,6,0,1.1914,80.6422,8
1,-3,-6,1.1834,81.3013,16
6,-1,3,1.1796,81.6186,16
6,-3,-1,1.1785,81.711,16
0,0,7,1.1479,84.38,2
2,-3,-6,1.1463,84.5251,16
6,2,3,1.1429,84.8353,16
6,3,-2,1.1422,84.8995,16
0,7,0,1.1417,84.9454,4
-1,0,-7,1.1363,85.4449,8
4,-3,-5,1.1333,85.7254,16
-3,5,4,1.1322,85.8287,16
5,-4,3,1.1313,85.9135,16
-7,0,1,1.1304,85.9985,8
-7,-1,0,1.1303,86.0079,8
1,1,7,1.1249,86.5221,8
5,-1,-5,1.1221,86.7914,16
-1,7,1,1.1192,87.0725,16
2,0,7,1.1033,88.652,8
-1,-4,-6,1.1018,88.8045,16
1,6,-4,1.0996,89.0293,16
-7,0,-2,1.0982,89.173,8
-4,6,1,1.0979,89.2038,16
7,2,0,1.0978,89.2141,8
-2,-1,7,1.0929,89.722,16
3,3,-6,1.0915,89.8684,8
5,2,5,1.0903,89.9943,8
3,-6,3,1.0886,90.1733,8
-7,-1,-2,1.088,90.2367,16
-7,-2,-1,1.0877,90.2685,16
2,2,-7,1.0635,92.9193,8
4,4,-5,1.0611,93.1924,8
4,5,4,1.0602,93.2953,8
2,-7,2,1.059,93.4329,8
0,3,7,1.0542,93.9884,8
0,7,-3,1.0503,94.4455,8
-3,7,0,1.0494,94.5518,8
3,-1,-7,1.0452,95.0516,16
-3,-5,5,1.0429,95.328,16
7,1,-3,1.0413,95.5214,16
-3,7,1,1.0406,95.6064,16
0,-5,-6,1.0265,97.3573,8
0,-6,5,1.0255,97.4845,8
6,-3,4,1.0247,97.5865,16
-4,6,-3,1.0241,97.6632,16
-6,-5,0,1.0233,97.7657,8
-3,2,-7,1.0193,98.2822,16
1,-5,6,1.0182,98.4254,16
-1,-6,5,1.0172,98.5561,16
7,2,3,1.0158,98.7397,16
7,-3,-2,1.0153,98.8055,16
-6,5,-1,1.0151,98.8319,16
0,1,8,0.9966,101.348,8
-4,0,-7,0.9953,101.53,8
5,-2,-6,0.9943,101.672,16
-6,-2,5,0.9933,101.813,16
0,-7,4,0.9926,101.913,8
-6,-5,-2,0.9916,102.055,16
0,-8,1,0.9914,102.084,8
8,-1,0,0.9913,102.098,8
1,-1,8,0.9889,102.443,16
-1,-4,7,0.9877,102.616,16
5,4,5,0.9858,102.893,8
1,7,4,0.985,103.01,16
-4,7,1,0.9838,103.185,16
-3,-3,-7,0.9802,103.718,8
3,7,-3,0.9771,104.182,16
2,-1,8,0.967,105.733,16
4,2,-7,0.9658,105.921,16
-7,2,-4,0.9633,106.316,16
7,-4,2,0.9624,106.459,16
-2,8,-1,0.9622,106.491,16
-5,3,6,0.9579,107.182,16
-3,6,5,0.9571,107.312,16
-5,-6,-3,0.9559,107.508,16
0,-3,8,0.9398,110.23,8
-1,6,6,0.9379,110.564,8
8,0,-3,0.936,110.9,8
-6,6,-1,0.9355,110.989,16
-3,8,0,0.9354,111.007,8
-1,3,8,0.9334,111.365,16
-5,0,-7,0.9324,111.545,8
7,0,-5,0.9307,111.854,8
3,7,4,0.9301,111.963,16
7,4,3,0.9297,112.036,16
3,8,-1,0.9291,112.146,16
1,5,7,0.9261,112.7,16
5,5,-5,0.9245,112.998,8
-5,-7,-1,0.9229,113.299,16
2,-3,8,0.9149,114.837,16
-4,-5,6,0.9131,115.192,16
6,4,5,0.9124,115.33,16
-5,6,4,0.9118,115.449,16
8,2,3,0.9113,115.549,16
8,3,-2,0.911,115.609,16
2,-5,-7,0.908,116.213,16
7,2,5,0.9065,116.518,16
-7,-5,2,0.9052,116.785,16
0,0,-9,0.8928,119.42,2
-1,-4,-8,0.8918,119.641,16
4,4,-7,0.8909,119.84,8
-3,-6,-6,0.8901,120.018,8
1,8,-4,0.8889,120.287,16
-6,6,-3,0.8885,120.377,16
4,-8,-1,0.8881,120.467,16
9,0,0,0.888,120.489,4
1,0,-9,0.8873,120.648,8
-3,-3,-8,0.8863,120.875,8
3,8,-3,0.8831,121.611,16
-1,-9,0,0.8826,121.728,8
-1,1,9,0.8819,121.891,16
-5,-3,7,0.88,122.338,16
-7,-3,-5,0.8787,122.647,16
-5,7,-3,0.8777,122.886,16
9,-1,-1,0.8773,122.982,8
0,2,-9,0.8713,124.452,8
0,6,-7,0.8696,124.879,8

File: TCAR123HKL.csv
H,K,L,Distance,2theta/TOF,Mult
0,0,2,4.0178,22.1246,2
0,2,0,3.9962,22.2457,4
0,2,2,2.8333,31.5777,8
2,2,0,2.8257,31.6648,4
2,-2,2,2.3113,38.968,8
0,0,-4,2.0089,45.1326,2
0,4,0,1.9981,45.3901,4
0,-2,4,1.7949,50.8724,8
0,-4,-2,1.789,51.0522,8
4,2,0,1.7871,51.1104,8
-2,2,4,1.6373,56.1788,16
-4,-2,-2,1.6329,56.3436,8
4,0,4,1.4166,65.9406,8
4,4,0,1.4128,66.1407,4
0,0,6,1.3392,70.2913,2
-2,4,4,1.3352,70.5332,8
-4,4,2,1.3328,70.6792,16
0,-6,0,1.332,70.728,4
0,2,-6,1.2698,74.763,8
0,6,2,1.2643,75.1444,8
6,-2,0,1.2637,75.1862,8
-2,2,6,1.2102,79.1397,16
-2,6,2,1.2054,79.5173,16
4,4,4,1.1556,83.6898,1
-4,0,-6,1.1125,87.73,8
6,0,-4,1.1101,87.9684,8
-4,6,0,1.1083,88.1482,8
-4,-2,-6,1.0717,92.0005,16
-6,-2,-4,1.0696,92.2338,16
6,4,-2,1.0684,92.3677,16
0,0,8,1.0044,100.267,2
-8,0,0,0.999,101.012,4
2,0,8,0.9741,104.636,8
4,-4,6,0.9719,104.973,16
-4,-6,-4,0.9704,105.204,8
0,-8,-2,0.9695,105.343,8
-8,2,0,0.9692,105.39,8
-2,-2,8,0.9464,109.092,8
0,6,-6,0.9444,109.434,8
-8,-2,-2,0.9422,109.813,8
6,6,0,0.9419,109.865,4
2,6,6,0.9191,114.022,8
-6,-6,2,0.917,114.428,8
0,4,-8,0.8974,118.422,8
8,0,4,0.8945,119.049,8
-8,4,0,0.8935,119.267,8
2,-4,-8,0.8756,123.393,16
2,8,4,0.8729,124.055,16
-4,8,2,0.8722,124.228,16