Folder: WPEM/Papers/Li_rich/base/output_xrd

Note: Papers/README.md
# WPEM
A X-ray Diffraction Refinement Software

Here are some refinement applications of WPEM in published papers

File: 4Mn5O12_Extinction_peak.csv
H,K,L,Distance,2theta/TOF,Mult
0,0,1,8.1616,10.8401,6
-1,1,0,5.7711,15.3534,24
0,2,0,4.0808,21.7788,6
2,0,1,3.6499,24.3873,24
1,-2,-1,3.3319,26.7561,48
-2,-2,1,2.7205,32.9234,24
3,1,0,2.5809,34.7593,24
-2,3,0,2.2636,39.8235,24
-2,1,-3,2.1812,41.3955,48
0,-1,4,1.9794,45.8432,24
-4,1,-1,1.9237,47.25,48
4,2,0,1.8249,49.9781,24
2,-1,-4,1.781,51.2981,48
-3,-2,3,1.74,52.5982,48
0,-5,0,1.6323,56.3662,6
3,1,-4,1.6006,57.5857,48
2,4,-3,1.5155,61.1532,48
2,-1,5,1.49,62.3155,48
2,2,-5,1.4207,65.7262,24
0,-5,3,1.3997,66.8404,24
1,6,0,1.3417,70.1411,24
3,5,2,1.3239,71.2263,48
0,-5,4,1.2746,74.4336,24
-5,1,-4,1.2593,75.4948,48
0,6,3,1.2166,78.6425,24
6,-3,-1,1.2033,79.6838,48

File: Li2MnO3_Extinction_peak.csv
H,K,L,Distance,2theta/TOF,Mult
0,1,0,8.532,10.3682,2
1,0,0,4.6549,19.0659,2
0,-1,-1,4.1452,21.4364,4
1,0,-1,4.068,21.8482,2
1,-2,0,3.145,28.3785,4
1,-2,-1,2.944,30.3611,4
-1,0,-1,2.8773,31.0825,4
0,3,0,2.844,31.4558,2
-1,0,2,2.4721,36.3413,2
0,3,-1,2.439,36.8521,4
1,-2,1,2.3854,37.711,4
2,1,-1,2.3412,38.4507,4
0,1,-2,2.2847,39.4404,4
2,1,0,2.2454,40.1601,4
-1,2,2,2.1389,42.253,4
2,-1,-2,1.9785,45.8653,4
-1,4,0,1.9391,46.8522,4
1,4,-1,1.889,48.1723,4
-1,0,-2,1.8753,48.5468,2
2,-3,-1,1.8495,49.2687,4
0,3,-2,1.8212,50.0866,4
-2,-1,-1,1.8162,50.2341,4
-2,3,0,1.8011,50.6849,4
1,2,2,1.7167,53.3682,4
1,4,1,1.7135,53.4758,4
0,-5,0,1.7064,53.7161,2
-1,0,3,1.6766,54.7499,2
-2,3,2,1.6544,55.5475,4
3,0,-1,1.6456,55.8705,2
-1,-4,2,1.6149,57.0288,4
0,5,1,1.6056,57.3897,4
-1,-2,3,1.5604,59.2146,4
3,0,-2,1.5577,59.3275,2
2,-3,1,1.5559,59.403,4
0,-1,3,1.5544,59.4661,4
3,0,0,1.5516,59.5843,2
-2,-1,3,1.5478,59.7454,4
-3,-2,1,1.5353,60.282,4
3,2,-2,1.4632,63.5888,4
3,2,0,1.4581,63.8374,4
-2,1,-2,1.4186,65.8359,4
-1,4,-2,1.4083,66.3793,4
-2,5,1,1.3973,66.9703,4
0,5,2,1.385,67.6449,4
0,-3,3,1.3817,67.8283,4
2,3,-3,1.3771,68.0859,4
2,-5,0,1.3761,68.1422,4
1,0,3,1.3648,68.785,2
1,6,0,1.3599,69.0679,4
3,0,-3,1.356,69.2949,2
3,0,1,1.3479,69.7715,2
-1,-6,1,1.3423,70.1051,4
1,-4,-3,1.3181,71.5879,4
2,-5,-2,1.3072,72.2784,4
3,-4,-1,1.3029,72.5548,4
-1,2,-3,1.2999,72.7491,4
-3,-2,3,1.2922,73.2528,4
3,-2,1,1.2853,73.7108,4
2,3,2,1.2837,73.8179,4
1,-6,1,1.2748,74.42,4
-3,-4,2,1.2579,75.5936,4
-2,-5,-1,1.257,75.6572,4
-3,4,0,1.2547,75.8204,4
-1,0,4,1.2531,75.9344,2
1,6,-2,1.2326,77.4293,4
2,-1,-4,1.2233,78.1293,4
0,7,0,1.2188,78.4731,2
-4,1,1,1.2163,78.6656,4
-4,1,2,1.2051,79.5411,4
-1,2,4,1.2023,79.7634,4