Folder: WPEM/Papers/ Layered/B-811/output_xrd

Note: Papers/README.md
# WPEM
A X-ray Diffraction Refinement Software

Here are some refinement applications of WPEM in published papers

File: LiTMO3HKL.csv
H,K,L,Distance,2theta/TOF,Mult
0,0,3,4.7203,18.7993,2
0,0,-4,3.5402,25.1552,2
0,0,5,2.8322,31.5902,2
0,1,0,2.4807,36.2109,6
1,0,-1,2.4435,36.7818,12
0,0,6,2.3601,38.1308,2
-1,0,2,2.3411,38.4524,12
0,-1,3,2.1959,41.1059,12
0,-1,4,2.0316,44.601,12
0,0,7,2.0229,44.8032,2
0,1,5,1.8661,48.8017,12