Folder: WPEM/Papers/Ru_Na/WPEM_RuO2/output_xrd

Note: Papers/README.md
# WPEM
A X-ray Diffraction Refinement Software

Here are some refinement applications of WPEM in published papers

File: RuO2HKL.csv
H,K,L,Distance,2theta/TOF,Mult
-1,1,0,3.1797,28.0624,8
1,0,-1,2.555,35.1231,8
0,2,0,2.2484,40.1043,4
-1,-1,1,2.2214,40.613,8
1,-2,0,2.011,45.0829,8
1,-2,-1,1.6879,54.353,16
2,2,0,1.5898,58.014,4
0,0,2,1.5524,59.5505,2
3,1,0,1.422,65.6586,8
-2,-2,1,1.4151,66.0194,8
-1,1,-2,1.395,67.0954,16
0,3,-1,1.3498,69.659,8
-1,-3,-1,1.2928,73.2133,8
0,2,2,1.2775,74.2362,8
-2,3,0,1.2471,76.3653,8
1,2,2,1.2288,77.7136,8
-3,-2,1,1.1573,83.5392,16
0,4,0,1.1242,86.5892,4
2,-2,2,1.1107,87.9087,8
-1,4,0,1.0906,89.9628,8